Stimulus,Choice1,Choice2,Choice3,Choice4,Choice5,Choice6,Choice7,Choice8,Corr,trials_2.thisRepN,trials_2.thisTrialN,trials_2.thisN,trials_2.thisIndex,StartPractice.keys,StartPractice.rt,GetReadyResp.keys,GetReadyResp.rt,key_resp_2.keys,key_resp_2.corr,ElapsedTime,key_resp_2.rt,session,Participant ID,date,expName,frameRate,
,,,,,,,,,,,,,,return,0.7735080718994141,,,,,,,01,9999999,2020_Dec_04_1720,Matrices,None,
,,,,,,,,,,,,,,,,return,0.7622230052947998,,,,,01,9999999,2020_Dec_04_1720,Matrices,None,
../../CompanionFolderForCognitiveTasks/MatricesImages/altBMatrix1.bmp,../../CompanionFolderForCognitiveTasks/MatricesImages/altBMatrix1Choice1.bmp,../../CompanionFolderForCognitiveTasks/MatricesImages/altBMatrix1Choice2.bmp,../../CompanionFolderForCognitiveTasks/MatricesImages/altBMatrix1Choice3.bmp,../../CompanionFolderForCognitiveTasks/MatricesImages/altBMatrix1Choice4.bmp,../../CompanionFolderForCognitiveTasks/MatricesImages/altBMatrix1Choice5.bmp,../../CompanionFolderForCognitiveTasks/MatricesImages/altBMatrix1Choice6.bmp,../../CompanionFolderForCognitiveTasks/MatricesImages/altBMatrix1Choice7.bmp,../../CompanionFolderForCognitiveTasks/MatricesImages/altBMatrix1Choice8.bmp,2,0,0,0,0,,,,,5,0,2.057173013687134,1.9621810913085938,01,9999999,2020_Dec_04_1720,Matrices,None,
../../CompanionFolderForCognitiveTasks/MatricesImages/altBMatrix2.bmp,../../CompanionFolderForCognitiveTasks/MatricesImages/altBMatrix2Choice1.bmp,../../CompanionFolderForCognitiveTasks/MatricesImages/altBMatrix2Choice2.bmp,../../CompanionFolderForCognitiveTasks/MatricesImages/altBMatrix2Choice3.bmp,../../CompanionFolderForCognitiveTasks/MatricesImages/altBMatrix2Choice4.bmp,../../CompanionFolderForCognitiveTasks/MatricesImages/altBMatrix2Choice5.bmp,../../CompanionFolderForCognitiveTasks/MatricesImages/altBMatrix2Choice6.bmp,../../CompanionFolderForCognitiveTasks/MatricesImages/altBMatrix2Choice7.bmp,../../CompanionFolderForCognitiveTasks/MatricesImages/altBMatrix2Choice8.bmp,5,0,1,1,1,,,,,4,0,3.581209897994995,0.8613951206207275,01,9999999,2020_Dec_04_1720,Matrices,None,
../../CompanionFolderForCognitiveTasks/MatricesImages/altBMatrix3.bmp,../../CompanionFolderForCognitiveTasks/MatricesImages/altBMatrix3Choice1.bmp,../../CompanionFolderForCognitiveTasks/MatricesImages/altBMatrix3Choice2.bmp,../../CompanionFolderForCognitiveTasks/MatricesImages/altBMatrix3Choice3.bmp,../../CompanionFolderForCognitiveTasks/MatricesImages/altBMatrix3Choice4.bmp,../../CompanionFolderForCognitiveTasks/MatricesImages/altBMatrix3Choice5.bmp,../../CompanionFolderForCognitiveTasks/MatricesImages/altBMatrix3Choice6.bmp,../../CompanionFolderForCognitiveTasks/MatricesImages/altBMatrix3Choice7.bmp,../../CompanionFolderForCognitiveTasks/MatricesImages/altBMatrix3Choice8.bmp,7,0,2,2,2,,,,,4,0,4.616940021514893,0.39184117317199707,01,9999999,2020_Dec_04_1720,Matrices,None,
../../CompanionFolderForCognitiveTasks/MatricesImages/altBMatrix4.bmp,../../CompanionFolderForCognitiveTasks/MatricesImages/altBMatrix4Choice1.bmp,../../CompanionFolderForCognitiveTasks/MatricesImages/altBMatrix4Choice2.bmp,../../CompanionFolderForCognitiveTasks/MatricesImages/altBMatrix4Choice3.bmp,../../CompanionFolderForCognitiveTasks/MatricesImages/altBMatrix4Choice4.bmp,../../CompanionFolderForCognitiveTasks/MatricesImages/altBMatrix4Choice5.bmp,../../CompanionFolderForCognitiveTasks/MatricesImages/altBMatrix4Choice6.bmp,../../CompanionFolderForCognitiveTasks/MatricesImages/altBMatrix4Choice7.bmp,../../CompanionFolderForCognitiveTasks/MatricesImages/altBMatrix4Choice8.bmp,2,0,3,3,3,,,,,4,0,5.303524971008301,0.14855289459228516,01,9999999,2020_Dec_04_1720,Matrices,None,
../../CompanionFolderForCognitiveTasks/MatricesImages/altBMatrix5.bmp,../../CompanionFolderForCognitiveTasks/MatricesImages/altBMatrix5Choice1.bmp,../../CompanionFolderForCognitiveTasks/MatricesImages/altBMatrix5Choice2.bmp,../../CompanionFolderForCognitiveTasks/MatricesImages/altBMatrix5Choice3.bmp,../../CompanionFolderForCognitiveTasks/MatricesImages/altBMatrix5Choice4.bmp,../../CompanionFolderForCognitiveTasks/MatricesImages/altBMatrix5Choice5.bmp,../../CompanionFolderForCognitiveTasks/MatricesImages/altBMatrix5Choice6.bmp,../../CompanionFolderForCognitiveTasks/MatricesImages/altBMatrix5Choice7.bmp,../../CompanionFolderForCognitiveTasks/MatricesImages/altBMatrix5Choice8.bmp,3,0,4,4,4,,,,,4,0,6.116597890853882,0.2738339900970459,01,9999999,2020_Dec_04_1720,Matrices,None,
../../CompanionFolderForCognitiveTasks/MatricesImages/altBMatrix6.bmp,../../CompanionFolderForCognitiveTasks/MatricesImages/altBMatrix6Choice1.bmp,../../CompanionFolderForCognitiveTasks/MatricesImages/altBMatrix6Choice2.bmp,../../CompanionFolderForCognitiveTasks/MatricesImages/altBMatrix6Choice3.bmp,../../CompanionFolderForCognitiveTasks/MatricesImages/altBMatrix6Choice4.bmp,../../CompanionFolderForCognitiveTasks/MatricesImages/altBMatrix6Choice5.bmp,../../CompanionFolderForCognitiveTasks/MatricesImages/altBMatrix6Choice6.bmp,../../CompanionFolderForCognitiveTasks/MatricesImages/altBMatrix6Choice7.bmp,../../CompanionFolderForCognitiveTasks/MatricesImages/altBMatrix6Choice8.bmp,2,0,5,5,5,,,,,4,0,7.46117091178894,0.813896894454956,01,9999999,2020_Dec_04_1720,Matrices,None,
../../CompanionFolderForCognitiveTasks/MatricesImages/altBMatrix7.bmp,../../CompanionFolderForCognitiveTasks/MatricesImages/altBMatrix7Choice1.bmp,../../CompanionFolderForCognitiveTasks/MatricesImages/altBMatrix7Choice2.bmp,../../CompanionFolderForCognitiveTasks/MatricesImages/altBMatrix7Choice3.bmp,../../CompanionFolderForCognitiveTasks/MatricesImages/altBMatrix7Choice4.bmp,../../CompanionFolderForCognitiveTasks/MatricesImages/altBMatrix7Choice5.bmp,../../CompanionFolderForCognitiveTasks/MatricesImages/altBMatrix7Choice6.bmp,../../CompanionFolderForCognitiveTasks/MatricesImages/altBMatrix7Choice7.bmp,../../CompanionFolderForCognitiveTasks/MatricesImages/altBMatrix7Choice8.bmp,5,0,6,6,6,,,,,4,0,8.561069965362549,0.5655941963195801,01,9999999,2020_Dec_04_1720,Matrices,None,
../../CompanionFolderForCognitiveTasks/MatricesImages/altBMatrix8.bmp,../../CompanionFolderForCognitiveTasks/MatricesImages/altBMatrix8Choice1.bmp,../../CompanionFolderForCognitiveTasks/MatricesImages/altBMatrix8Choice2.bmp,../../CompanionFolderForCognitiveTasks/MatricesImages/altBMatrix8Choice3.bmp,../../CompanionFolderForCognitiveTasks/MatricesImages/altBMatrix8Choice4.bmp,../../CompanionFolderForCognitiveTasks/MatricesImages/altBMatrix8Choice5.bmp,../../CompanionFolderForCognitiveTasks/MatricesImages/altBMatrix8Choice6.bmp,../../CompanionFolderForCognitiveTasks/MatricesImages/altBMatrix8Choice7.bmp,../../CompanionFolderForCognitiveTasks/MatricesImages/altBMatrix8Choice8.bmp,2,0,7,7,7,,,,,4,0,9.752847909927368,0.6567859649658203,01,9999999,2020_Dec_04_1720,Matrices,None,
../../CompanionFolderForCognitiveTasks/MatricesImages/altBMatrix9.bmp,../../CompanionFolderForCognitiveTasks/MatricesImages/altBMatrix9Choice1.bmp,../../CompanionFolderForCognitiveTasks/MatricesImages/altBMatrix9Choice2.bmp,../../CompanionFolderForCognitiveTasks/MatricesImages/altBMatrix9Choice3.bmp,../../CompanionFolderForCognitiveTasks/MatricesImages/altBMatrix9Choice4.bmp,../../CompanionFolderForCognitiveTasks/MatricesImages/altBMatrix9Choice5.bmp,../../CompanionFolderForCognitiveTasks/MatricesImages/altBMatrix9Choice6.bmp,../../CompanionFolderForCognitiveTasks/MatricesImages/altBMatrix9Choice7.bmp,../../CompanionFolderForCognitiveTasks/MatricesImages/altBMatrix9Choice8.bmp,2,0,8,8,8,,,,,4,0,11.477458953857422,0.9394240379333496,01,9999999,2020_Dec_04_1720,Matrices,None,
../../CompanionFolderForCognitiveTasks/MatricesImages/altBMatrix10.bmp,../../CompanionFolderForCognitiveTasks/MatricesImages/altBMatrix10Choice1.bmp,../../CompanionFolderForCognitiveTasks/MatricesImages/altBMatrix10Choice2.bmp,../../CompanionFolderForCognitiveTasks/MatricesImages/altBMatrix10Choice3.bmp,../../CompanionFolderForCognitiveTasks/MatricesImages/altBMatrix10Choice4.bmp,../../CompanionFolderForCognitiveTasks/MatricesImages/altBMatrix10Choice5.bmp,../../CompanionFolderForCognitiveTasks/MatricesImages/altBMatrix10Choice6.bmp,../../CompanionFolderForCognitiveTasks/MatricesImages/altBMatrix10Choice7.bmp,../../CompanionFolderForCognitiveTasks/MatricesImages/altBMatrix10Choice8.bmp,5,0,9,9,9,,,,,4,0,12.738821983337402,0.727776050567627,01,9999999,2020_Dec_04_1720,Matrices,None,
../../CompanionFolderForCognitiveTasks/MatricesImages/altBMatrix11.bmp,../../CompanionFolderForCognitiveTasks/MatricesImages/altBMatrix11Choice1.bmp,../../CompanionFolderForCognitiveTasks/MatricesImages/altBMatrix11Choice2.bmp,../../CompanionFolderForCognitiveTasks/MatricesImages/altBMatrix11Choice3.bmp,../../CompanionFolderForCognitiveTasks/MatricesImages/altBMatrix11Choice4.bmp,../../CompanionFolderForCognitiveTasks/MatricesImages/altBMatrix11Choice5.bmp,../../CompanionFolderForCognitiveTasks/MatricesImages/altBMatrix11Choice6.bmp,../../CompanionFolderForCognitiveTasks/MatricesImages/altBMatrix11Choice7.bmp,../../CompanionFolderForCognitiveTasks/MatricesImages/altBMatrix11Choice8.bmp,1,0,10,10,10,,,,,4,0,13.63440203666687,0.35417699813842773,01,9999999,2020_Dec_04_1720,Matrices,None,
../../CompanionFolderForCognitiveTasks/MatricesImages/altBMatrix12.bmp,../../CompanionFolderForCognitiveTasks/MatricesImages/altBMatrix12Choice1.bmp,../../CompanionFolderForCognitiveTasks/MatricesImages/altBMatrix12Choice2.bmp,../../CompanionFolderForCognitiveTasks/MatricesImages/altBMatrix12Choice3.bmp,../../CompanionFolderForCognitiveTasks/MatricesImages/altBMatrix12Choice4.bmp,../../CompanionFolderForCognitiveTasks/MatricesImages/altBMatrix12Choice5.bmp,../../CompanionFolderForCognitiveTasks/MatricesImages/altBMatrix12Choice6.bmp,../../CompanionFolderForCognitiveTasks/MatricesImages/altBMatrix12Choice7.bmp,../../CompanionFolderForCognitiveTasks/MatricesImages/altBMatrix12Choice8.bmp,2,0,11,11,11,,,,,4,0,14.863667011260986,0.686851978302002,01,9999999,2020_Dec_04_1720,Matrices,None,
../../CompanionFolderForCognitiveTasks/MatricesImages/altBMatrix13.bmp,../../CompanionFolderForCognitiveTasks/MatricesImages/altBMatrix13choice1.bmp,../../CompanionFolderForCognitiveTasks/MatricesImages/altBMatrix13choice2.bmp,../../CompanionFolderForCognitiveTasks/MatricesImages/altBMatrix13choice3.bmp,../../CompanionFolderForCognitiveTasks/MatricesImages/altBMatrix13choice4.bmp,../../CompanionFolderForCognitiveTasks/MatricesImages/altBMatrix13choice5.bmp,../../CompanionFolderForCognitiveTasks/MatricesImages/altBMatrix13choice6.bmp,../../CompanionFolderForCognitiveTasks/MatricesImages/altBMatrix13choice7.bmp,../../CompanionFolderForCognitiveTasks/MatricesImages/altBMatrix13choice8.bmp,1,0,12,12,12,,,,,4,0,16.400194883346558,1.000014066696167,01,9999999,2020_Dec_04_1720,Matrices,None,
../../CompanionFolderForCognitiveTasks/MatricesImages/altBMatrix14.bmp,../../CompanionFolderForCognitiveTasks/MatricesImages/altBMatrix14Choice1.bmp,../../CompanionFolderForCognitiveTasks/MatricesImages/altBMatrix14Choice2.bmp,../../CompanionFolderForCognitiveTasks/MatricesImages/altBMatrix14Choice3.bmp,../../CompanionFolderForCognitiveTasks/MatricesImages/altBMatrix14Choice4.bmp,../../CompanionFolderForCognitiveTasks/MatricesImages/altBMatrix14Choice5.bmp,../../CompanionFolderForCognitiveTasks/MatricesImages/altBMatrix14Choice6.bmp,../../CompanionFolderForCognitiveTasks/MatricesImages/altBMatrix14Choice7.bmp,../../CompanionFolderForCognitiveTasks/MatricesImages/altBMatrix14Choice8.bmp,3,0,13,13,13,,,,,4,0,17.932674884796143,0.9844820499420166,01,9999999,2020_Dec_04_1720,Matrices,None,
../../CompanionFolderForCognitiveTasks/MatricesImages/altBMatrix15.bmp,../../CompanionFolderForCognitiveTasks/MatricesImages/altBMatrix15Choice1.bmp,../../CompanionFolderForCognitiveTasks/MatricesImages/altBMatrix15Choice2.bmp,../../CompanionFolderForCognitiveTasks/MatricesImages/altBMatrix15Choice3.bmp,../../CompanionFolderForCognitiveTasks/MatricesImages/altBMatrix15Choice4.bmp,../../CompanionFolderForCognitiveTasks/MatricesImages/altBMatrix15Choice5.bmp,../../CompanionFolderForCognitiveTasks/MatricesImages/altBMatrix15Choice6.bmp,../../CompanionFolderForCognitiveTasks/MatricesImages/altBMatrix15Choice7.bmp,../../CompanionFolderForCognitiveTasks/MatricesImages/altBMatrix15Choice8.bmp,2,0,14,14,14,,,,,4,0,19.081451892852783,0.6134200096130371,01,9999999,2020_Dec_04_1720,Matrices,None,
../../CompanionFolderForCognitiveTasks/MatricesImages/altBMatrix16.bmp,../../CompanionFolderForCognitiveTasks/MatricesImages/altBMatrix16Choice1.bmp,../../CompanionFolderForCognitiveTasks/MatricesImages/altBMatrix16Choice2.bmp,../../CompanionFolderForCognitiveTasks/MatricesImages/altBMatrix16Choice3.bmp,../../CompanionFolderForCognitiveTasks/MatricesImages/altBMatrix16Choice4.bmp,../../CompanionFolderForCognitiveTasks/MatricesImages/altBMatrix16Choice5.bmp,../../CompanionFolderForCognitiveTasks/MatricesImages/altBMatrix16Choice6.bmp,../../CompanionFolderForCognitiveTasks/MatricesImages/altBMatrix16Choice7.bmp,../../CompanionFolderForCognitiveTasks/MatricesImages/altBMatrix16Choice8.bmp,5,0,15,15,15,,,,,4,0,20.37390398979187,0.7599120140075684,01,9999999,2020_Dec_04_1720,Matrices,None,
../../CompanionFolderForCognitiveTasks/MatricesImages/altBMatrix17.bmp,../../CompanionFolderForCognitiveTasks/MatricesImages/altBMatrix17choice1.bmp,../../CompanionFolderForCognitiveTasks/MatricesImages/altBMatrix17choice2.bmp,../../CompanionFolderForCognitiveTasks/MatricesImages/altBMatrix17choice3.bmp,../../CompanionFolderForCognitiveTasks/MatricesImages/altBMatrix17choice4.bmp,../../CompanionFolderForCognitiveTasks/MatricesImages/altBMatrix17choice5.bmp,../../CompanionFolderForCognitiveTasks/MatricesImages/altBMatrix17choice6.bmp,../../CompanionFolderForCognitiveTasks/MatricesImages/altBMatrix17choice7.bmp,../../CompanionFolderForCognitiveTasks/MatricesImages/altBMatrix17choice8.bmp,6,0,16,16,16,,,,,4,0,21.807368993759155,0.8127689361572266,01,9999999,2020_Dec_04_1720,Matrices,None,
../../CompanionFolderForCognitiveTasks/MatricesImages/altBMatrix18.bmp,../../CompanionFolderForCognitiveTasks/MatricesImages/altBMatrix18Choice1.bmp,../../CompanionFolderForCognitiveTasks/MatricesImages/altBMatrix18Choice2.bmp,../../CompanionFolderForCognitiveTasks/MatricesImages/altBMatrix18Choice3.bmp,../../CompanionFolderForCognitiveTasks/MatricesImages/altBMatrix18Choice4.bmp,../../CompanionFolderForCognitiveTasks/MatricesImages/altBMatrix18Choice5.bmp,../../CompanionFolderForCognitiveTasks/MatricesImages/altBMatrix18Choice6.bmp,../../CompanionFolderForCognitiveTasks/MatricesImages/altBMatrix18Choice7.bmp,../../CompanionFolderForCognitiveTasks/MatricesImages/altBMatrix18Choice8.bmp,4,0,17,17,17,,,,,4,1,23.302753925323486,0.7961478233337402,01,9999999,2020_Dec_04_1720,Matrices,None,
../../CompanionFolderForCognitiveTasks/MatricesImages/matrix1.bmp,../../CompanionFolderForCognitiveTasks/MatricesImages/matrix1choice1.bmp,../../CompanionFolderForCognitiveTasks/MatricesImages/matrix1choice2.bmp,../../CompanionFolderForCognitiveTasks/MatricesImages/matrix1choice3.bmp,../../CompanionFolderForCognitiveTasks/MatricesImages/matrix1choice4.bmp,../../CompanionFolderForCognitiveTasks/MatricesImages/matrix1choice5.bmp,../../CompanionFolderForCognitiveTasks/MatricesImages/matrix1choice6.bmp,../../CompanionFolderForCognitiveTasks/MatricesImages/matrix1choice7.bmp,../../CompanionFolderForCognitiveTasks/MatricesImages/matrix1choice8.bmp,5,0,18,18,18,,,,,4,0,24.811774969100952,0.8421449661254883,01,9999999,2020_Dec_04_1720,Matrices,None,
../../CompanionFolderForCognitiveTasks/MatricesImages/matrix2.bmp,../../CompanionFolderForCognitiveTasks/MatricesImages/matrix2choice1.bmp,../../CompanionFolderForCognitiveTasks/MatricesImages/matrix2choice2.bmp,../../CompanionFolderForCognitiveTasks/MatricesImages/matrix2choice3.bmp,../../CompanionFolderForCognitiveTasks/MatricesImages/matrix2choice4.bmp,../../CompanionFolderForCognitiveTasks/MatricesImages/matrix2choice5.bmp,../../CompanionFolderForCognitiveTasks/MatricesImages/matrix2choice6.bmp,../../CompanionFolderForCognitiveTasks/MatricesImages/matrix2choice7.bmp,../../CompanionFolderForCognitiveTasks/MatricesImages/matrix2choice8.bmp,7,0,19,19,19,,,,,4,0,26.56107997894287,0.991844892501831,01,9999999,2020_Dec_04_1720,Matrices,None,
../../CompanionFolderForCognitiveTasks/MatricesImages/matrix3.bmp,../../CompanionFolderForCognitiveTasks/MatricesImages/matrix3choice1.bmp,../../CompanionFolderForCognitiveTasks/MatricesImages/matrix3choice2.bmp,../../CompanionFolderForCognitiveTasks/MatricesImages/matrix3choice3.bmp,../../CompanionFolderForCognitiveTasks/MatricesImages/matrix3choice4.bmp,../../CompanionFolderForCognitiveTasks/MatricesImages/matrix3choice5.bmp,../../CompanionFolderForCognitiveTasks/MatricesImages/matrix3choice6.bmp,../../CompanionFolderForCognitiveTasks/MatricesImages/matrix3choice7.bmp,../../CompanionFolderForCognitiveTasks/MatricesImages/matrix3choice8.bmp,3,0,20,20,20,,,,,4,0,27.99386692047119,0.7671961784362793,01,9999999,2020_Dec_04_1720,Matrices,None,
../../CompanionFolderForCognitiveTasks/MatricesImages/matrix4.bmp,../../CompanionFolderForCognitiveTasks/MatricesImages/matrix4choice1.bmp,../../CompanionFolderForCognitiveTasks/MatricesImages/matrix4choice2.bmp,../../CompanionFolderForCognitiveTasks/MatricesImages/matrix4choice3.bmp,../../CompanionFolderForCognitiveTasks/MatricesImages/matrix4choice4.bmp,../../CompanionFolderForCognitiveTasks/MatricesImages/matrix4choice5.bmp,../../CompanionFolderForCognitiveTasks/MatricesImages/matrix4choice6.bmp,../../CompanionFolderForCognitiveTasks/MatricesImages/matrix4choice7.bmp,../../CompanionFolderForCognitiveTasks/MatricesImages/matrix4choice8.bmp,6,0,21,21,21,,,,,4,0,29.532739877700806,0.8805539608001709,01,9999999,2020_Dec_04_1720,Matrices,None,
../../CompanionFolderForCognitiveTasks/MatricesImages/matrix5.bmp,../../CompanionFolderForCognitiveTasks/MatricesImages/matrix5choice1.bmp,../../CompanionFolderForCognitiveTasks/MatricesImages/matrix5choice2.bmp,../../CompanionFolderForCognitiveTasks/MatricesImages/matrix5choice3.bmp,../../CompanionFolderForCognitiveTasks/MatricesImages/matrix5choice4.bmp,../../CompanionFolderForCognitiveTasks/MatricesImages/matrix5choice5.bmp,../../CompanionFolderForCognitiveTasks/MatricesImages/matrix5choice6.bmp,../../CompanionFolderForCognitiveTasks/MatricesImages/matrix5choice7.bmp,../../CompanionFolderForCognitiveTasks/MatricesImages/matrix5choice8.bmp,8,0,22,22,22,,,,,4,0,32.0684859752655,1.928231954574585,01,9999999,2020_Dec_04_1720,Matrices,None,
../../CompanionFolderForCognitiveTasks/MatricesImages/matrix6.bmp,../../CompanionFolderForCognitiveTasks/MatricesImages/matrix6choice1.bmp,../../CompanionFolderForCognitiveTasks/MatricesImages/matrix6choice2.bmp,../../CompanionFolderForCognitiveTasks/MatricesImages/matrix6choice3.bmp,../../CompanionFolderForCognitiveTasks/MatricesImages/matrix6choice4.bmp,../../CompanionFolderForCognitiveTasks/MatricesImages/matrix6choice5.bmp,../../CompanionFolderForCognitiveTasks/MatricesImages/matrix6choice6.bmp,../../CompanionFolderForCognitiveTasks/MatricesImages/matrix6choice7.bmp,../../CompanionFolderForCognitiveTasks/MatricesImages/matrix6choice8.bmp,5,0,23,23,23,,,,,4,0,33.83515405654907,1.1055328845977783,01,9999999,2020_Dec_04_1720,Matrices,None,
../../CompanionFolderForCognitiveTasks/MatricesImages/matrix7.bmp,../../CompanionFolderForCognitiveTasks/MatricesImages/matrix7choice1.bmp,../../CompanionFolderForCognitiveTasks/MatricesImages/matrix7choice2.bmp,../../CompanionFolderForCognitiveTasks/MatricesImages/matrix7choice3.bmp,../../CompanionFolderForCognitiveTasks/MatricesImages/matrix7choice4.bmp,../../CompanionFolderForCognitiveTasks/MatricesImages/matrix7choice5.bmp,../../CompanionFolderForCognitiveTasks/MatricesImages/matrix7choice6.bmp,../../CompanionFolderForCognitiveTasks/MatricesImages/matrix7choice7.bmp,../../CompanionFolderForCognitiveTasks/MatricesImages/matrix7choice8.bmp,2,0,24,24,24,,,,,4,0,35.271738052368164,0.785599946975708,01,9999999,2020_Dec_04_1720,Matrices,None,
../../CompanionFolderForCognitiveTasks/MatricesImages/matrix8.bmp,../../CompanionFolderForCognitiveTasks/MatricesImages/matrix8choice1.bmp,../../CompanionFolderForCognitiveTasks/MatricesImages/matrix8choice2.bmp,../../CompanionFolderForCognitiveTasks/MatricesImages/matrix8choice3.bmp,../../CompanionFolderForCognitiveTasks/MatricesImages/matrix8choice4.bmp,../../CompanionFolderForCognitiveTasks/MatricesImages/matrix8choice5.bmp,../../CompanionFolderForCognitiveTasks/MatricesImages/matrix8choice6.bmp,../../CompanionFolderForCognitiveTasks/MatricesImages/matrix8choice7.bmp,../../CompanionFolderForCognitiveTasks/MatricesImages/matrix8choice8.bmp,2,0,25,25,25,,,,,4,0,36.65002989768982,0.6644411087036133,01,9999999,2020_Dec_04_1720,Matrices,None,
../../CompanionFolderForCognitiveTasks/MatricesImages/matrix9.bmp,../../CompanionFolderForCognitiveTasks/MatricesImages/matrix9choice1.bmp,../../CompanionFolderForCognitiveTasks/MatricesImages/matrix9choice2.bmp,../../CompanionFolderForCognitiveTasks/MatricesImages/matrix9choice3.bmp,../../CompanionFolderForCognitiveTasks/MatricesImages/matrix9choice4.bmp,../../CompanionFolderForCognitiveTasks/MatricesImages/matrix9choice5.bmp,../../CompanionFolderForCognitiveTasks/MatricesImages/matrix9choice6.bmp,../../CompanionFolderForCognitiveTasks/MatricesImages/matrix9choice7.bmp,../../CompanionFolderForCognitiveTasks/MatricesImages/matrix9choice8.bmp,6,0,26,26,26,,,,,4,0,38.00146198272705,0.7015590667724609,01,9999999,2020_Dec_04_1720,Matrices,None,
../../CompanionFolderForCognitiveTasks/MatricesImages/matrix10.bmp,../../CompanionFolderForCognitiveTasks/MatricesImages/matrix10choice1.bmp,../../CompanionFolderForCognitiveTasks/MatricesImages/matrix10choice2.bmp,../../CompanionFolderForCognitiveTasks/MatricesImages/matrix10choice3.bmp,../../CompanionFolderForCognitiveTasks/MatricesImages/matrix10choice4.bmp,../../CompanionFolderForCognitiveTasks/MatricesImages/matrix10choice5.bmp,../../CompanionFolderForCognitiveTasks/MatricesImages/matrix10choice6.bmp,../../CompanionFolderForCognitiveTasks/MatricesImages/matrix10choice7.bmp,../../CompanionFolderForCognitiveTasks/MatricesImages/matrix10choice8.bmp,3,0,27,27,27,,,,,4,0,39.5326828956604,0.896791934967041,01,9999999,2020_Dec_04_1720,Matrices,None,
../../CompanionFolderForCognitiveTasks/MatricesImages/matrix11.bmp,../../CompanionFolderForCognitiveTasks/MatricesImages/matrix11choice1.bmp,../../CompanionFolderForCognitiveTasks/MatricesImages/matrix11choice2.bmp,../../CompanionFolderForCognitiveTasks/MatricesImages/matrix11choice3.bmp,../../CompanionFolderForCognitiveTasks/MatricesImages/matrix11choice4.bmp,../../CompanionFolderForCognitiveTasks/MatricesImages/matrix11choice5.bmp,../../CompanionFolderForCognitiveTasks/MatricesImages/matrix11choice6.bmp,../../CompanionFolderForCognitiveTasks/MatricesImages/matrix11choice7.bmp,../../CompanionFolderForCognitiveTasks/MatricesImages/matrix11choice8.bmp,8,0,28,28,28,,,,,4,0,40.93303298950195,0.796720027923584,01,9999999,2020_Dec_04_1720,Matrices,None,
../../CompanionFolderForCognitiveTasks/MatricesImages/matrix12.bmp,../../CompanionFolderForCognitiveTasks/MatricesImages/matrix12choice1.bmp,../../CompanionFolderForCognitiveTasks/MatricesImages/matrix12choice2.bmp,../../CompanionFolderForCognitiveTasks/MatricesImages/matrix12choice3.bmp,../../CompanionFolderForCognitiveTasks/MatricesImages/matrix12choice4.bmp,../../CompanionFolderForCognitiveTasks/MatricesImages/matrix12choice5.bmp,../../CompanionFolderForCognitiveTasks/MatricesImages/matrix12choice6.bmp,../../CompanionFolderForCognitiveTasks/MatricesImages/matrix12choice7.bmp,../../CompanionFolderForCognitiveTasks/MatricesImages/matrix12choice8.bmp,6,0,29,29,29,,,,,4,0,42.39386606216431,0.7972538471221924,01,9999999,2020_Dec_04_1720,Matrices,None,
../../CompanionFolderForCognitiveTasks/MatricesImages/matrix14.bmp,../../CompanionFolderForCognitiveTasks/MatricesImages/matrix14choice1.bmp,../../CompanionFolderForCognitiveTasks/MatricesImages/matrix14choice2.bmp,../../CompanionFolderForCognitiveTasks/MatricesImages/matrix14choice3.bmp,../../CompanionFolderForCognitiveTasks/MatricesImages/matrix14choice4.bmp,../../CompanionFolderForCognitiveTasks/MatricesImages/matrix14choice5.bmp,../../CompanionFolderForCognitiveTasks/MatricesImages/matrix14choice6.bmp,../../CompanionFolderForCognitiveTasks/MatricesImages/matrix14choice7.bmp,../../CompanionFolderForCognitiveTasks/MatricesImages/matrix14choice8.bmp,7,0,30,30,30,,,,,4,0,43.8512179851532,0.8672711849212646,01,9999999,2020_Dec_04_1720,Matrices,None,
../../CompanionFolderForCognitiveTasks/MatricesImages/matrix15.bmp,../../CompanionFolderForCognitiveTasks/MatricesImages/matrix15choice1.bmp,../../CompanionFolderForCognitiveTasks/MatricesImages/matrix15choice2.bmp,../../CompanionFolderForCognitiveTasks/MatricesImages/matrix15choice3.bmp,../../CompanionFolderForCognitiveTasks/MatricesImages/matrix15choice4.bmp,../../CompanionFolderForCognitiveTasks/MatricesImages/matrix15choice5.bmp,../../CompanionFolderForCognitiveTasks/MatricesImages/matrix15choice6.bmp,../../CompanionFolderForCognitiveTasks/MatricesImages/matrix15choice7.bmp,../../CompanionFolderForCognitiveTasks/MatricesImages/matrix15choice8.bmp,6,0,31,31,31,,,,,4,0,45.164944887161255,0.6412780284881592,01,9999999,2020_Dec_04_1720,Matrices,None,
../../CompanionFolderForCognitiveTasks/MatricesImages/matrix16.bmp,../../CompanionFolderForCognitiveTasks/MatricesImages/matrix16choice1.bmp,../../CompanionFolderForCognitiveTasks/MatricesImages/matrix16choice2.bmp,../../CompanionFolderForCognitiveTasks/MatricesImages/matrix16choice3.bmp,../../CompanionFolderForCognitiveTasks/MatricesImages/matrix16choice4.bmp,../../CompanionFolderForCognitiveTasks/MatricesImages/matrix16choice5.bmp,../../CompanionFolderForCognitiveTasks/MatricesImages/matrix16choice6.bmp,../../CompanionFolderForCognitiveTasks/MatricesImages/matrix16choice7.bmp,../../CompanionFolderForCognitiveTasks/MatricesImages/matrix16choice8.bmp,4,0,32,32,32,,,,,4,1,46.50717306137085,0.7344589233398438,01,9999999,2020_Dec_04_1720,Matrices,None,
../../CompanionFolderForCognitiveTasks/MatricesImages/matrix17.bmp,../../CompanionFolderForCognitiveTasks/MatricesImages/matrix17choice1.bmp,../../CompanionFolderForCognitiveTasks/MatricesImages/matrix17choice2.bmp,../../CompanionFolderForCognitiveTasks/MatricesImages/matrix17choice3.bmp,../../CompanionFolderForCognitiveTasks/MatricesImages/matrix17choice4.bmp,../../CompanionFolderForCognitiveTasks/MatricesImages/matrix17choice5.bmp,../../CompanionFolderForCognitiveTasks/MatricesImages/matrix17choice6.bmp,../../CompanionFolderForCognitiveTasks/MatricesImages/matrix17choice7.bmp,../../CompanionFolderForCognitiveTasks/MatricesImages/matrix17choice8.bmp,2,0,33,33,33,,,,,4,0,47.78080201148987,0.6284899711608887,01,9999999,2020_Dec_04_1720,Matrices,None,
../../CompanionFolderForCognitiveTasks/MatricesImages/matrix18.bmp,../../CompanionFolderForCognitiveTasks/MatricesImages/matrix18choice1.bmp,../../CompanionFolderForCognitiveTasks/MatricesImages/matrix18choice2.bmp,../../CompanionFolderForCognitiveTasks/MatricesImages/matrix18choice3.bmp,../../CompanionFolderForCognitiveTasks/MatricesImages/matrix18choice4.bmp,../../CompanionFolderForCognitiveTasks/MatricesImages/matrix18choice5.bmp,../../CompanionFolderForCognitiveTasks/MatricesImages/matrix18choice6.bmp,../../CompanionFolderForCognitiveTasks/MatricesImages/matrix18choice7.bmp,../../CompanionFolderForCognitiveTasks/MatricesImages/matrix18choice8.bmp,3,0,34,34,34,,,,,4,0,49.15102696418762,0.7307369709014893,01,9999999,2020_Dec_04_1720,Matrices,None,
